<Bundle xmlns="http://hl7.org/fhir"><id value="d12dc439-ca5c-4177-bb70-4fece88edab0" /><meta><profile value="https://fhir.nhs.uk/StructureDefinition/itk-message-bundle-1" /></meta><type value="message" /><entry><fullUrl value="https://fhir.nhs.uk/StructureDefinition/itk-messageheader-1" /><resource><MessageHeader><id value="ea7221b8-3cc0-4b11-bc95-585b056b5427" /><meta><profile value="https://fhir.nhs.uk/StructureDefinition/itk-messageheader-1" /></meta><extension url="https://fhir.nhs.uk/StructureDefinition/extension-itk-messagehandling-1"><extension url="key"><valueCodeableConcept><coding><system value="https://fhir.nhs.uk/itk-handling-key-1" /><code value="SNDSRVC" /><display value="Sending Service" /></coding></valueCodeableConcept></extension><extension url="value"><valueString value="SendDocument-v1-0" /></extension></extension><extension url="https://fhir.nhs.uk/StructureDefinition/extension-itk-messagehandling-1"><extension url="key"><valueCodeableConcept><coding><system value="https://fhir.nhs.uk/itk-handling-key-1" /><code value="INTID" /><display value="Interaction ID" /></coding></valueCodeableConcept></extension><extension url="value"><valueString value="DOC-ToC-Primary-Recipient-eDischarge-1" /></extension></extension><extension url="https://fhir.nhs.uk/StructureDefinition/extension-itk-messagehandling-1"><extension url="key"><valueCodeableConcept><coding><system value="https://fhir.nhs.uk/itk-handling-key-1" /><code value="INFACK" /><display value="Infrastructure Acknowledgement" /></coding></valueCodeableConcept></extension><extension url="value"><valueBoolean value="true" /></extension></extension><timestamp value="2017-01-23T10:10:15+00:00" /><event><extension url="https://fhir.nhs.uk/StructureDefinition/extension-cofe-care-setting-type-1"><valueCodeableConcept><coding><system value="http://snomed.info/sct" /><code value="394576009" /><display value="Accident &amp; emergency" /></coding></valueCodeableConcept></extension><system value="https://fhir.nhs.uk/document-type-1" /><code value="373942005" /><display value="Discharge summary" /></event><source><endpoint value="urn:nhs-uk:addressing:ods:B83019" /></source><destination><endpoint value="urn:nhs-uk:addressing:ods:RHM" /></destination><author><reference value="Practitioner/9ff4a692-c1d7-4dd6-9e0b-f44e77348faf" /><display value="Dr Tom Jones" /></author><data><reference value="Bundle/c06e13aa-8c3b-4e67-999b-6e07e399e741" /></data></MessageHeader></resource></entry><entry><resource><Bundle><id value="f862ec24-e05a-42d1-aea5-d0a9c092e6ae" /><meta><profile value="https://fhir.nhs.uk/StructureDefinition/cofe-document-bundle-1" /></meta><type value="document" /><entry><fullUrl value="https://fhir.nhs.uk/StructureDefinition/cofe-cda-header-composition-1" /><resource><Composition><id value="3aa7a8bf-0628-44f2-8c1f-bdf81ac54b14" /><meta><profile value="https://fhir.nhs.uk/StructureDefinition/cofe-cda-header-composition-1" /></meta><extension url="https://fhir.nhs.uk/StructureDefinition/extension-cofe-information-recipient-1"><valueReference><reference value="Practitioner/5e414a77-d394-4248-a631-00e45ddb64a0" /><display value="Dr John Lorenzo" /></valueReference></extension><extension url="https://fhir.nhs.uk/StructureDefinition/extension-cofe-information-recipient-1"><valueReference><reference value="Practitioner/8ece9986-9af0-4882-b0cf-23a96ea7b509" /><display value="Mrs Angela Smith" /></valueReference></extension><identifier><value id="6d377e88-ff86-4db9-9c9b-6c61411c50f9" /></identifier><date value="2015-03-05T12:00:00+00:00" /><type><extension url="https://fhir.nhs.uk/StructureDefinition/extension-cofe-care-setting-type-1"><valueCodeableConcept><coding><system value="http://snomed.info/sct" /><code value="892811000000109" /><display value="Adult mental health service" /></coding></valueCodeableConcept></extension><coding><system value="http://snomed.info/sct" /><code value="373942005" /><display value="Discharge summary" /></coding></type><title value="Discharge summary" /><status value="final" /><confidentiality value="V" /><subject><reference value="Patient/f919dedc-3c62-462f-a171-8d86c5aaa074" /><display value="Mr Jon Burrows" /></subject><author><reference value="Practitioner/44c853c7-a22f-49ce-8eb5-27a05c83e6ec" /><display value="Dr Matthew Scott" /></author><custodian><reference value="Organization/6de0a05a-d4b2-4f67-b0d4-80cc2a670f90" /><display value="Leeds Teaching Hospitals NHS Trust" /></custodian><encounter><reference value="Encounter/cf080749-31c9-4ff6-b2d8-a2dd3dce851c" /><display value="Medical consultation on hospital inpatient" /></encounter><section><title value="Admission details" /><code><coding><system value="http://snomed.info/sct" /><code value="886781000000108" /><display value="Admission details" /></coding></code><text><status value="generated" /><div xmlns="http://www.w3.org/1999/xhtml">
  <table width="100%">
    <tbody>
      <tr>
        <th>Admission method</th>
        <td>Emergency</td>
      </tr>
      <tr>
        <th>Date of admission</th>
        <td>13-Mar-2015</td>
      </tr>
      <tr>
        <th>Source of admission</th>
        <td>Local park</td>
      </tr>
    </tbody>
  </table>
</div></text></section><section><title value="Allergies and adverse reactions" /><code><coding><system value="http://snomed.info/sct" /><code value="886921000000105" /><display value="Allergies and adverse reactions" /></coding></code><text><status value="generated" /><div xmlns="http://www.w3.org/1999/xhtml">
  <table width="100%">
    <tbody>
      <tr>
        <th>Causative agent</th>
        <td>Peanut allergy</td>
      </tr>
      <tr>
        <th>Description of the reaction</th>
        <td>hives</td>
      </tr>
    </tbody>
  </table>
</div></text><orderedBy><coding><system value="http://hl7.org/fhir/list-order" /><code value="system" /><display value="Sorted by System" /></coding></orderedBy><entry><reference value="List/95e8f8d0-dfc3-4c72-a9dc-7ba1ccd1fab4" /><display value="Allergies" /></entry></section><section><title value="Assessment scales" /><code><coding><system value="http://snomed.info/sct" /><code value="887141000000103" /><display value="Assessment scales" /></coding></code><text><status value="generated" /><div xmlns="http://www.w3.org/1999/xhtml">
  <table width="100%">
    <tbody>
      <tr>
        <th>Assessment scales</th>
        <td>HoNOS Total = 19</td>
      </tr>
    </tbody>
  </table>
</div></text></section><section><title value="Clinical summary" /><code><coding><system value="http://snomed.info/sct" /><code value="887181000000106" /><display value="Clinical summary" /></coding></code><text><status value="generated" /><div xmlns="http://www.w3.org/1999/xhtml">
  <table width="100%">
    <tbody>
      <tr>
        <th>Clinical Summary</th>
      </tr>
      <tr>
        <td>Jon was taken to casualty and admitted to a medical ward two weeks ago after taking a serious overdose of paracetamol and drinking half a bottle of whisky.</td>
      </tr>
      <tr>
        <td>He was found unconscious face down among the bushes in a local park.</td>
      </tr>
      <tr>
        <td>Jon had been depressed for some months prior to this having lost his job as a building surveyor.</td>
      </tr>
      <tr>
        <td>He was having difficulty sleeping and often waking early, sometimes at three of four in the morning.</td>
      </tr>
      <tr>
        <td>While on the ward his suicidal urges have reduced and he has been started on an atypical antidepressant to good effect.</td>
      </tr>
      <tr>
        <td>He now regrets attempting to take his own life, is thankful for the support of his family and looks forward to commencing psychological therapies for depression (IAPT) and seeking new employment.</td>
      </tr>
    </tbody>
  </table>
</div></text></section><section><title value="Diagnoses" /><code><coding><system value="http://snomed.info/sct" /><code value="887161000000102" /><display value="Diagnoses" /></coding></code><text><status value="generated" /><div xmlns="http://www.w3.org/1999/xhtml">
  <table width="100%">
    <tbody>
      <tr>
        <th>Diagnosis</th>
        <td>Severe depressive episode without psychotic symptoms</td>
      </tr>
    </tbody>
  </table>
</div></text><orderedBy><coding><system value="http://hl7.org/fhir/list-order" /><code value="system" /><display value="Sorted by System" /></coding></orderedBy><entry><reference value="Condition/11ae3617-f898-4503-a895-54eed614a574" /><display value="[X]Severe depressive episode without psychotic symptoms" /></entry></section><section><title value="Discharge details" /><code><coding><system value="http://snomed.info/sct" /><code value="886811000000106" /><display value="Discharge details" /></coding></code><text><status value="generated" /><div xmlns="http://www.w3.org/1999/xhtml">
  <table width="100%">
    <tbody>
      <tr>
        <th>Discharging consultant</th>
        <td>Dr Beck</td>
      </tr>
      <tr>
        <th>Date of discharge</th>
        <td>06-Apr-2015</td>
      </tr>
      <tr>
        <th>Time of discharge</th>
        <td>13:00</td>
      </tr>
      <tr>
        <th>Discharge method</th>
        <td>Patient discharged on clinical advice</td>
      </tr>
      <tr>
        <th>Discharge type</th>
        <td>Usual  residence</td>
      </tr>
    </tbody>
  </table>
</div></text><entry><reference value="Practitioner/04d089aa-be17-42fd-a6fc-961245696263" /><display value="Dr Beck" /></entry><entry><reference value="Encounter/cf080749-31c9-4ff6-b2d8-a2dd3dce851c" /><display value="Patient discharged on clinical advice or with clinical consent" /></entry></section><section><title value="Individual requirements" /><code><coding><system value="http://snomed.info/sct" /><code value="1052901000000109" /><display value="Individual requirements" /></coding></code><text><status value="generated" /><div xmlns="http://www.w3.org/1999/xhtml">
  <table width="100%">
    <tbody>
      <tr>
        <th>Individual requirement</th>
        <td>No special requirements but always wants family kept informed</td>
      </tr>
    </tbody>
  </table>
</div></text></section><section><title value="Information and advice given" /><code><coding><system value="http://snomed.info/sct" /><code value="1052951000000105" /><display value="Information and advice given" /></coding></code><text><status value="generated" /><div xmlns="http://www.w3.org/1999/xhtml">
  <table width="100%">
    <tbody>
      <tr>
        <th>Information and advice given</th>
        <td>CBT for Depression referral to local IAPT services - High Intensity</td>
      </tr>
    </tbody>
  </table>
</div></text></section><section><title value="Investigation results" /><code><coding><system value="http://snomed.info/sct" /><code value="24641000000107" /><display value="Investigation results" /></coding></code><text><status value="generated" /><div xmlns="http://www.w3.org/1999/xhtml">
  <table>
    <tbody>
      <tr>
        <th>Investigation result</th>
      </tr>
      <tr>
        <td>
          <pre>
Full Blood Count      
      
Test						Value			Units			Reference Range
White Cell Count				11.1			x10*9/L			3.5 - 10.0
Red Cell Count					5.0			x10*12/L		4.25 - 5.75 
Haemoglobin					150			g/L			13.0 - 17.0
Haematocrit					0.230						0.400 - 0.500
Mean Cell Volume				90			fL			84 - 98
Mean Cell Hb					33.0			pg			27.5 - 32.0
Mean Cell Hb Con				34.0			pg			31.0 - 35.0
RDW						12.0			%			&lt; 14.5
Platelet Count					300			x10*9/L			150 - 400

Machine Differential      
      
Test                  				Value			Units        		Reference Range
Neutrophils					7.0			x10*9/L			1.7 - 7.5
Lymphocytes					3.5			x10*9/L			1.0 - 3.5   
Monocytes					0.3			x10*9/L			&lt; 0.6  
Eosinophils					0.4			x10*9/L			&lt; 0.4  
Basophils					0.1			x10*9/L			&lt; 0.1 
LUCs						0.2			x10*9/L			&lt; 0.4 
      </pre>
        </td>
      </tr>
    </tbody>
  </table>
</div></text></section><section><title value="Legal information" /><code><coding><system value="http://snomed.info/sct" /><code value="886961000000102" /><display value="Legal information" /></coding></code><text><status value="generated" /><div xmlns="http://www.w3.org/1999/xhtml">
  <table width="100%">
    <tbody>
      <tr>
        <th>Consent for treatment/ intervention record</th>
        <td>Yes</td>
      </tr>
      <tr>
        <th>Consent for information sharing</th>
        <td>Yes</td>
      </tr>
      <tr>
        <th>Mental Health Act or equivalent status</th>
        <td>None</td>
      </tr>
    </tbody>
  </table>
</div></text></section><section><title value="Medications and medical devices" /><code><coding><system value="http://snomed.info/sct" /><code value="933361000000108" /><display value="Medications and medical devices" /></coding></code><text><status value="generated" /><div xmlns="http://www.w3.org/1999/xhtml">
  <table width="100%">
    <tbody>
      <tr>
        <th>Medication name</th>
        <td>SERTRALINE</td>
      </tr>
      <tr>
        <th>Dose</th>
        <td>200mg</td>
      </tr>
      <tr>
        <th>Medication frequency</th>
        <td>OD</td>
      </tr>
      <tr>
        <th>Route</th>
        <td>oral</td>
      </tr>
      <tr>
        <th>Medication recommendations</th>
        <td>continue</td>
      </tr>
    </tbody>
  </table>
</div></text><orderedBy><coding><system value="http://hl7.org/fhir/list-order" /><code value="system" /><display value="Sorted by System" /></coding></orderedBy><entry><reference value="List/972eeaba-9aec-4154-8925-9062cdcd95f0" /><display value="Medication List" /></entry></section><section><title value="Participation in research" /><code><coding><system value="http://snomed.info/sct" /><code value="886751000000102" /><display value="Participation in research" /></coding></code><text><status value="generated" /><div xmlns="http://www.w3.org/1999/xhtml">
  <table width="100%">
    <tbody>
      <tr>
        <th>Participation in research</th>
        <td>Yes - patient agrees to be approached for potential participation in appropriate research</td>
      </tr>
    </tbody>
  </table>
</div></text></section><section><title value="Patient and carer concerns, expectations and wishes" /><code><coding><system value="http://snomed.info/sct" /><code value="1052941000000107" /><display value="Patient and carer concerns, expectations and wishes" /></coding></code><text><status value="generated" /><div xmlns="http://www.w3.org/1999/xhtml">
  <table width="100%">
    <tbody>
      <tr>
        <th>Patient and carer concerns, expectations and wishes</th>
        <td>Patient stated "I do not want ECT"</td>
      </tr>
    </tbody>
  </table>
</div></text></section><section><title value="Person completing record" /><code><coding><system value="http://snomed.info/sct" /><code value="887231000000104" /><display value="Person completing record" /></coding></code><text><status value="generated" /><div xmlns="http://www.w3.org/1999/xhtml">
  <table width="100%">
    <tbody>
      <tr>
        <th>Name</th>
        <td>Dr M Scott</td>
      </tr>
      <tr>
        <th>Role</th>
        <td>Specialty registrar</td>
      </tr>
      <tr>
        <th>Date completed</th>
        <td>07-Apr-2015</td>
      </tr>
      <tr>
        <th>Contact details</th>
        <td>Phone: 01634 111222</td>
      </tr>
    </tbody>
  </table>
</div></text></section><section><title value="Plan and requested actions" /><code><coding><system value="http://snomed.info/sct" /><code value="887201000000105" /><display value="Plan and requested actions" /></coding></code><text><status value="generated" /><div xmlns="http://www.w3.org/1999/xhtml">
  <table width="100%">
    <tbody>
      <tr>
        <th>Actions</th>
        <td>Routine follow up will be needed from Primary Care e.g. Well man clinic.  The Community Consultant responsible for this action is Dr Gillingham working for the Leeds Recovery and Support Team.</td>
      </tr>
      <tr>
        <th>Care planning arrangements</th>
        <td>CPA Status and 117 Aftercare: Follow up will be made by the Leeds Recovery and Support team. 7 Day Follow up will be done by the community team.</td>
      </tr>
    </tbody>
  </table>
</div></text><orderedBy><coding><system value="http://hl7.org/fhir/list-order" /><code value="system" /><display value="Sorted by System" /></coding></orderedBy></section><section><title value="Referrer details" /><code><coding><system value="http://snomed.info/sct" /><code value="1052891000000108" /><display value="Referrer details" /></coding></code><text><status value="generated" /><div xmlns="http://www.w3.org/1999/xhtml">
  <table width="100%">
    <tbody>
      <tr>
        <th>Referrer details</th>
        <td>Brought to Emergency department by family</td>
      </tr>
    </tbody>
  </table>
</div></text><orderedBy><coding><system value="http://hl7.org/fhir/list-order" /><code value="system" /><display value="Sorted by System" /></coding></orderedBy><entry><reference value="Encounter/cf080749-31c9-4ff6-b2d8-a2dd3dce851c" /><display value="Emergency department patient visit" /></entry></section><section><title value="Safety alerts" /><code><coding><system value="http://snomed.info/sct" /><code value="886931000000107" /><display value="Safety alerts" /></coding></code><text><status value="generated" /><div xmlns="http://www.w3.org/1999/xhtml">
  <table width="100%">
    <tbody>
      <tr>
        <th>Risks to self</th>
        <td>Suicidality - serious past attempts</td>
      </tr>
    </tbody>
  </table>
</div></text><orderedBy><coding><system value="http://hl7.org/fhir/list-order" /><code value="system" /><display value="Sorted by System" /></coding></orderedBy></section><section><title value="Social context" /><code><coding><system value="http://snomed.info/sct" /><code value="887051000000101" /><display value="Social context" /></coding></code><text><status value="generated" /><div xmlns="http://www.w3.org/1999/xhtml">
  <table width="100%">
    <tbody>
      <tr>
        <th>Household composition</th>
        <td>Lives with wife and two teenage daughters</td>
      </tr>
      <tr>
        <th>Alcohol intake</th>
        <td>Does not drink</td>
      </tr>
    </tbody>
  </table>
</div></text><orderedBy><coding><system value="http://hl7.org/fhir/list-order" /><code value="system" /><display value="Sorted by System" /></coding></orderedBy></section></Composition></resource></entry><entry><resource><Encounter><id value="cf080749-31c9-4ff6-b2d8-a2dd3dce851c" /><meta><profile value="https://fhir.nhs.uk/StructureDefinition/careconnect-toc-encounter-1" /></meta><identifier><system value="https://tools.ietf.org/html/rfc4122" /><value value="24c91f00-dde0-4662-bdce-2e483fe89daa" /></identifier><status value="finished" /><type><coding><system value="http://snomed.info/sct" /><code value="24882007" /><display value="Medical consultation on hospital inpatient" /></coding></type><patient><reference value="Patient/f919dedc-3c62-462f-a171-8d86c5aaa074" /><display value="Mr Jon Burrows" /></patient><participant><type><coding><system value="http://hl7.org/fhir/v3/ParticipationType" /><code value="DIS" /><display value="discharger" /></coding></type><individual><reference value="Practitioner/04d089aa-be17-42fd-a6fc-961245696263" /><display value="Dr Beck" /></individual></participant><period><start value="2015-03-13T12:00:00+00:00" /><end value="2015-04-06T12:00:00+00:00" /></period><hospitalization><origin><reference value="Location/e1e34198-c5f8-41b6-8fc4-a2b66abcdc0b" /></origin><admitSource><coding><system value="https://fhir.nhs.uk/Admission-Method-1" /><code value="21" /><display value="Accident and emergency or dental casualty department of the Health Care Provider" /></coding></admitSource><destination><reference value="Location/250f278e-eff8-4df8-82e3-789055c5fd8a" /></destination><dischargeDisposition><coding><system value="https://fhir.nhs.uk/Discharge-Method-1" /><code value="1" /><display value="Patient discharged on clinical advice or with clinical consent" /></coding></dischargeDisposition><dischargeDiagnosis><reference value="Condition/11ae3617-f898-4503-a895-54eed614a574" /><display value="[X]Severe depressive episode without psychotic symptoms" /></dischargeDiagnosis></hospitalization><location><location><reference value="Location/01bb1ccc-577b-4a4a-9fb0-9c8fe9f21fa3" /><display value="Hospital" /></location></location></Encounter></resource></entry><entry><resource><List><id value="972eeaba-9aec-4154-8925-9062cdcd95f0" /><meta><profile value="http://hl7.org/fhir/StructureDefinition/cofe-medication-list-1" /></meta><identifier><value value="afb94840-1a20-48b2-8162-6cbdceaa260a" /></identifier><code><coding><system value="http://hl7.org/fhir/list-example-use-codes" /><code value="medications" /><display value="Medication List" /></coding></code><subject><reference value="Patient/f919dedc-3c62-462f-a171-8d86c5aaa074" /><display value="Mr Jon Burrows" /></subject><status value="current" /><mode value="snapshot" /><entry><flag><coding><system value="https://fhir.nhs.uk/medication-list-flag-code-1" /><code value="08" /><display value="This is an active medication." /></coding></flag><item><reference value="MedicationStatement/dd596f8a-2c72-44b1-a7aa-c1490fce46d2" /></item></entry></List></resource></entry><entry><resource><MedicationStatement><id value="dd596f8a-2c72-44b1-a7aa-c1490fce46d2" /><meta><profile value="http://hl7.org/fhir/StructureDefinition/careconnect-toc-medicationstatement-1" /></meta><extension url="https://fhir.nhs.uk/StructureDefinition/Extension-CareConnect-MedicationFlag-1"><valueReference><reference value="Flag/ea9f830d-81ce-447a-b56e-69f2803e6433" /></valueReference></extension><identifier><value value="eb515b2d-e87f-41e2-9ff0-cc756d9b12c8" /></identifier><patient><reference value="Patient/f919dedc-3c62-462f-a171-8d86c5aaa074" /><display value="Mr Jon Burrows" /></patient><status value="active" /><medicationCodeableConcept><coding><system value="http://snomed.info/sct" /><code value="321960002" /><display value="Sertraline 100mg tablet" /></coding></medicationCodeableConcept><dosage><text value="Take two tablets daily" /><timing><repeat><frequency value="1" /><period value="1" /><periodUnits value="d" /></repeat></timing><asNeededBoolean value="false" /><route><coding><system value="http://snomed.info/sct" /><code value="260548002" /><display value="Oral" /></coding></route><quantityQuantity><value value="2" /></quantityQuantity><maxDosePerPeriod><numerator><value value="2" /><unit value="Tablet" /><system value="http://snomed.info/sct" /><code value="385055001" /></numerator><denominator><value value="1" /><system value="http://unitsofmeasure.org" /><code value="d" /></denominator></maxDosePerPeriod></dosage></MedicationStatement></resource></entry><entry><resource><Flag><id value="ea9f830d-81ce-447a-b56e-69f2803e6433" /><meta><profile value="http://hl7.org/fhir/StructureDefinition/careconnect-toc-medication-flag-1" /></meta><extension url="https://fhir.nhs.uk/StructureDefinition/Extension-CareConnect-MedicationFlagAssociation-1"><valueReference><reference value="MedicationStatement/dd596f8a-2c72-44b1-a7aa-c1490fce46d2" /></valueReference></extension><identifier><value value="e57c0b0f-a679-47eb-901c-3cb62b21d72a" /></identifier><category><coding><system value="http://hl7.org/fhir/flag-category" /><code value="drug" /><display value="Drug" /></coding></category><status value="active" /><subject><reference value="Patient/f919dedc-3c62-462f-a171-8d86c5aaa074" /><display value="Mr Jon Burrows" /></subject><code><coding><system value="https://fhir.nhs.uk/medication-flag-code-1" /><code value="02" /><display value="Continue medication indefinitely" /></coding></code></Flag></resource></entry><entry><resource><List><id value="95e8f8d0-dfc3-4c72-a9dc-7ba1ccd1fab4" /><meta><profile value="https://fhir.nhs.uk/StructureDefinition/COFE-Allergies-List-1" /></meta><identifier><value value="6ee0967d-aaa7-411a-9398-518c089ce3a1" /></identifier><code><coding><system value="http://hl7.org/fhir/list-example-use-codes" /><code value="allergies" /><display value="Allergies" /></coding></code><subject><reference value="Patient/f919dedc-3c62-462f-a171-8d86c5aaa074" /><display value="Mr Jon Burrows" /></subject><status value="current" /><mode value="snapshot" /><entry><item><reference value="AllergyIntolerance/f8deaa1e-62ac-41cb-a475-9df3ea737a8e" /></item></entry></List></resource></entry><entry><resource><AllergyIntolerance><id value="f8deaa1e-62ac-41cb-a475-9df3ea737a8e" /><meta><profile value="http://hl7.org/fhir/StructureDefinition/careconnect-toc-allergyintolerance-1" /></meta><extension url="https://fhir.nhs.uk/StructureDefinition/Extension-COFE-AllergyFlag-1"><valueReference><reference value="Flag/e62ae8fe-1fa7-4cee-9f45-8dfe911899e9" /></valueReference></extension><identifier><value value="17faf6c5-2897-458d-9893-3428c755fffb" /></identifier><onset value="2015-02-12T12:00:00+00:00" /><patient><reference value="Patient/f919dedc-3c62-462f-a171-8d86c5aaa074" /><display value="Mr Jon Burrows" /></patient><substance><coding><system value="http://snomed.info/sct" /><code value="256349002" /><display value="Peanut - dietary" /></coding></substance><status value="active" /><type value="allergy" /><category value="food" /><reaction><manifestation><coding><system value="http://snomed.info/sct" /><code value="247472004" /><display value="Hives" /></coding></manifestation></reaction></AllergyIntolerance></resource></entry><entry><resource><Flag><id value="e62ae8fe-1fa7-4cee-9f45-8dfe911899e9" /><meta><profile value="http://hl7.org/fhir/StructureDefinition/cofe-allergy-flag-1" /></meta><extension url="https://fhir.nhs.uk/StructureDefinition/Extension-COFE-AllergyFlagAssociation-1"><valueReference><reference value="AllergyIntolerance/f8deaa1e-62ac-41cb-a475-9df3ea737a8e" /></valueReference></extension><identifier><value value="cd8288a0-6bc3-4f69-aef5-61ca8da41c33" /></identifier><category><coding><system value="http://snomed.info/sct" /><code value="886921000000105" /><display value="Allergies and adverse reactions" /></coding></category><status value="active" /><subject><reference value="Patient/f919dedc-3c62-462f-a171-8d86c5aaa074" /><display value="Mr Jon Burrows" /></subject><code><coding><system value="http://snomed.info/sct" /><code value="414285001" /><display value="Food allergy" /></coding></code></Flag></resource></entry><entry><resource><Condition><id value="11ae3617-f898-4503-a895-54eed614a574" /><meta><profile value="https://fhir.nhs.uk/StructureDefinition/CareConnect-Condition-1" /></meta><identifier><value value="c4b2d64e-23f3-4055-8299-141aacf9c16c" /></identifier><patient><reference value="Patient/f919dedc-3c62-462f-a171-8d86c5aaa074" /><display value="Mr Jon Burrows" /></patient><encounter><reference value="Encounter/cf080749-31c9-4ff6-b2d8-a2dd3dce851c" /></encounter><asserter><reference /></asserter><dateRecorded value="2015-03-05" /><code><coding><system value="http://snomed.info/sct" /><code value="397701000000102" /><display value="[X]Severe depressive episode without psychotic symptoms" /></coding></code><clinicalStatus value="active" /><verificationStatus value="confirmed" /><onsetDateTime value="2015-03-15T12:00:00+00:00" /></Condition></resource></entry><entry><resource><Patient><id value="f919dedc-3c62-462f-a171-8d86c5aaa074" /><meta><profile value="http://hl7.org/fhir/StructureDefinition/careconnect-patient-1" /></meta><extension url="http://hl7.org.uk/fhir/CareConnect-EthnicCategory-1-Extension"><valueCodeableConcept><coding><system value="http://hl7.org.uk/fhir/CareConnect-EthnicCategory-1" /><code value="A" /><display value="British, Mixed British" /></coding></valueCodeableConcept></extension><extension url="http://hl7.org.uk/fhir/CareConnect-ResidentialStatus-1-Extension"><valueCodeableConcept><coding><system value="http://hl7.org.uk/fhir/CareConnect-ResidentialStatus" /><code value="H" /><display value="UK Resident" /></coding></valueCodeableConcept></extension><extension url="http://hl7.org.uk/fhir/CareConnect-TreatmentCategory-1-Extension"><valueCodeableConcept><coding><system value="http://hl7.org.uk/fhir/CareConnect-TreatmentCategory" /><code value="8" /><display value="Not applicable" /></coding></valueCodeableConcept></extension><extension url="http://hl7.org.uk/fhir/CareConnect-NhsCommunication-1-Extension"><extension url="language"><valueCodeableConcept><coding><system value="http://hl7.org.uk/fhir/CareConnect-HumanLanguage" /><code value="en" /><display value="English" /></coding></valueCodeableConcept></extension><extension url="preferred"><valueBoolean value="true" /></extension><extension url="modeOfCommunication"><valueCodeableConcept><coding><system value="http://hl7.org.uk/fhir/CareConnect-LanguageAbilityMode" /><code value="ESP" /><display value="Expressed spoken" /></coding></valueCodeableConcept></extension><extension url="modeOfCommunication"><valueCodeableConcept><coding><system value="http://hl7.org.uk/fhir/CareConnect-LanguageAbilityMode" /><code value="RWR" /><display value="Received written" /></coding></valueCodeableConcept></extension><extension url="communicationProficiency"><valueCodeableConcept><coding><system value="http://hl7.org.uk/fhir/CareConnect-LanguageAbilityProficiency" /><code value="E" /><display value="Excellent" /></coding></valueCodeableConcept></extension><extension url="interpreterRequired"><valueBoolean value="false" /></extension></extension><identifier><extension url="http://hl7.org.uk/fhir/CareConnect-NhsNumberVerificationStatus-1-Extension"><valueCodeableConcept><coding><system value="http://hl7.org.uk/fhir/CareConnect-NhsNumberVerificationStatus" /><code value="01" /><display value="Number present and verified" /></coding></valueCodeableConcept></extension><system value="https://fhir.nhs.uk/Id/nhs-number" /><value value="12345678" /></identifier><active value="true" /><name><use value="usual" /><family value="Burrows" /><given value="Jon" /><prefix value="Mr" /></name><gender value="male" /><birthDate value="1970-09-10" /><address><use value="home" /><line value="22, Brown Street" /><city value="Overtown" /><district value="West Yorkshire" /><postalCode value="LN22" /></address><maritalStatus><coding><system value="http://hl7.org/fhir/marital-status" /><code value="M" /><display value="Married" /></coding></maritalStatus><contact><relationship><coding><system value="https://fhir.nhs.uk/cda-person-relationship-type-1" /><code value="22" /><display value="Wife" /></coding></relationship><name><use value="usual" /><family value="Burrows" /><given value="Eve" /><prefix value="Mrs" /></name><telecom><system value="phone" /><value value="07912678910" /><use value="mobile" /></telecom><telecom><system value="email" /><value value="eburrows@mymail.com" /></telecom><gender value="female" /></contact><careProvider><reference value="Organization/f9f24f89-646b-4a19-a6b1-cabfa3b612e1" /><display value="MGP Medical Centre" /></careProvider></Patient></resource></entry><entry><resource><Practitioner><id value="5e414a77-d394-4248-a631-00e45ddb64a0" /><meta><profile value="http://hl7.org.uk/fhir/StructureDefinition/CareConnect-practitioner-1" /></meta><identifier><system value="https://fhir.nhs.uk/Id/sds-identifier" /><value value="GP12345600" /></identifier><name><family value="Lorenzo" /><given value="John" /><prefix value="Dr" /></name><telecom><system value="phone" /><value value="01634111222" /><use value="work" /></telecom><telecom><system value="email" /><value value="John.Lorenzo@MMC.co.uk" /></telecom><practitionerRole><managingOrganization><reference value="f9f24f89-646b-4a19-a6b1-cabfa3b612e1" /><display value="MGP Medical Centre" /></managingOrganization><role><coding><system value="https://fhir.nhs.uk/job-role-name-1" /><code value="NR9100" /><display value="Named GP" /></coding></role></practitionerRole></Practitioner></resource></entry><entry><resource><Practitioner><id value="04d089aa-be17-42fd-a6fc-961245696263" /><meta><profile value="http://hl7.org.uk/fhir/CareConnect-Practitioner-1" /></meta><name><family value="Beck" /><prefix value="Dr" /></name><practitionerRole><role><coding><system value="http://hl7.org/fhir/practitioner-role" /><code value="doctor" /><display value="Doctor" /></coding></role></practitionerRole></Practitioner></resource></entry><entry><resource><Practitioner><id value="44c853c7-a22f-49ce-8eb5-27a05c83e6ec" /><meta><profile value="http://hl7.org.uk/fhir/CareConnect-Practitioner-1" /></meta><name><family value="Scott" /><given value="Matthew" /><prefix value="Dr" /></name><telecom><system value="phone" /><value value="01634111222" /><use value="work" /></telecom><practitionerRole><role><coding><system value="http://hl7.org/fhir/practitioner-role" /><code value="doctor" /><display value="Doctor" /></coding></role></practitionerRole></Practitioner></resource></entry><entry><resource><Organization><id value="f9f24f89-646b-4a19-a6b1-cabfa3b612e1" /><meta><profile value="http://hl7.org/fhir/StructureDefinition/CareConnect-organization-1" /></meta><identifier><system value="https://fhir.nhs.uk/Id/ods-organization-code" /><value value="GP123456" /></identifier><type><coding><system value="http://hl7.org/fhir/organization-type" /><code value="prov" /><display value="Healthcare Provider" /></coding></type><name value="MGP Medical Centre" /><telecom><system value="phone" /><value value="01634111223" /><use value="work" /></telecom><telecom><system value="email" /><value value="Admin@MMC.co.uk" /></telecom><address><use value="work" /><line value="1 MGP House" /><line value="Overtown" /><line value="Leeds" /><line value="LS21 7PA" /></address></Organization></resource></entry><entry><resource><Organization><id value="6de0a05a-d4b2-4f67-b0d4-80cc2a670f90" /><meta><profile value="http://hl7.org.uk/CareConnect-Organization-1" /></meta><identifier><system value="https://fhir.nhs.uk/Id/ods-organization-code" /><value value="RR8" /></identifier><type><coding><system value="http://hl7.org/fhir/organization-type" /><code value="prov" /><display value="Healthcare Provider" /></coding></type><name value="Leeds Teaching Hospitals NHS Trust" /><telecom><system value="phone" /><value value="01132433144" /><use value="work" /></telecom><address><line value="Leeds Teaching Hospitals NHS Trust" /><line value="St James's University Hospital" /><line value="Neurology Department" /><line value="Beckett Street" /><city value="Leeds" /><postalCode value="LS9 7TF" /></address></Organization></resource></entry><entry><resource><Location><id value="e1e34198-c5f8-41b6-8fc4-a2b66abcdc0b" /><meta><profile value="https://fhir.nhs.uk/StructureDefinition/cofe-admission-location-1" /></meta><type><coding><system value="https://fhir.nhs.uk/Source-Of-Admission-1" /><code value="19" /><display value="Usual place of residence unless listed below, for example, a private dwelling whether owner occupied or owned by Local Authority, housing association or other landlord. This includes Wardened accommodation but not residential accommodation where health care is provided. It also includes Patients with no fixed abode." /></coding></type></Location></resource></entry><entry><resource><Location><id value="250f278e-eff8-4df8-82e3-789055c5fd8a" /><meta><profile value="https://fhir.nhs.uk/StructureDefinition/cofe-discharge-location-1" /></meta><type><coding><system value="https://fhir.nhs.uk/Discharge-Destination-1" /><code value="19" /><display value="Usual place of residence unless listed below, for example, a private dwelling whether owner occupied or owned by local authority, housing association or other landlord. This includes wardened accommodation but not residential accommodation where health care is provided. It also includes PATIENTS with no fixed abode." /></coding></type></Location></resource></entry><entry><resource><Location><id value="01bb1ccc-577b-4a4a-9fb0-9c8fe9f21fa3" /><meta><profile value="https://fhir.nhs.uk/StructureDefinition/cofe-location-1" /></meta><name value="Leeds Teaching Hospital" /><type><coding><system value="http://hl7.org/fhir/v3-ServiceDeliveryLocationRoleType" /><code value="HOSP" /><display value="Hospital" /></coding></type></Location></resource></entry></Bundle></resource></entry></Bundle>